File: CRYSTAL/Cyclopentadiene/crystal_raman.dat-broaden.dat
# freq/cm-1  Intensity
-5.75282e+02   2.99349e-06
-5.72282e+02   3.00316e-06
-5.69282e+02   3.01289e-06
-5.66282e+02   3.02269e-06
-5.63282e+02   3.03255e-06
-5.60282e+02   3.04247e-06
-5.57282e+02   3.05245e-06
-5.54282e+02   3.06250e-06
-5.51282e+02   3.07261e-06
-5.48282e+02   3.08279e-06
-5.45282e+02   3.09304e-06
-5.42282e+02   3.10335e-06
-5.39282e+02   3.11373e-06
-5.36282e+02   3.12418e-06
-5.33282e+02   3.13471e-06
-5.30282e+02   3.14530e-06
-5.27282e+02   3.15596e-06
-5.24282e+02   3.16670e-06
-5.21282e+02   3.17751e-06
-5.18282e+02   3.18840e-06
-5.15282e+02   3.19936e-06
-5.12282e+02   3.21039e-06
-5.09282e+02   3.22151e-06
-5.06282e+02   3.23270e-06
-5.03282e+02   3.24398e-06
-5.00282e+02   3.25533e-06
-4.97282e+02   3.26676e-06
-4.94282e+02   3.27828e-06
-4.91282e+02   3.28988e-06
-4.88282e+02   3.30157e-06
-4.85282e+02   3.31335e-06
-4.82282e+02   3.32521e-06
-4.79282e+02   3.33716e-06
-4.76282e+02   3.34920e-06
-4.73282e+02   3.36133e-06
-4.70282e+02   3.37355e-06
-4.67282e+02   3.38587e-06
-4.64282e+02   3.39828e-06
-4.61282e+02   3.41079e-06
-4.58282e+02   3.42340e-06
-4.55282e+02   3.43611e-06
-4.52282e+02   3.44892e-06
-4.49282e+02   3.46183e-06
-4.46282e+02   3.47484e-06
-4.43282e+02   3.48797e-06
-4.40282e+02   3.50120e-06
-4.37282e+02   3.51453e-06
-4.34282e+02   3.52799e-06
-4.31282e+02   3.54155e-06
-4.28282e+02   3.55523e-06
-4.25282e+02   3.56902e-06
-4.22282e+02   3.58293e-06
-4.19282e+02   3.59697e-06
-4.16282e+02   3.61112e-06
-4.13282e+02   3.62541e-06
-4.10282e+02   3.63981e-06
-4.07282e+02   3.65435e-06
-4.04282e+02   3.66902e-06
-4.01282e+02   3.68382e-06
-3.98282e+02   3.69876e-06
-3.95282e+02   3.71384e-06
-3.92282e+02   3.72906e-06
-3.89282e+02   3.74442e-06
-3.86282e+02   3.75993e-06
-3.83282e+02   3.77558e-06
-3.80282e+02   3.79139e-06
-3.77282e+02   3.80736e-06
-3.74282e+02   3.82348e-06
-3.71282e+02   3.83976e-06
-3.68282e+02   3.85621e-06
-3.65282e+02   3.87283e-06
-3.62282e+02   3.88961e-06
-3.59282e+02   3.90658e-06
-3.56282e+02   3.92371e-06
-3.53282e+02   3.94104e-06
-3.50282e+02   3.95854e-06
-3.47282e+02   3.97624e-06
-3.44282e+02   3.99413e-06
-3.41282e+02   4.01222e-06
-3.38282e+02   4.03051e-06
-3.35282e+02   4.04900e-06
-3.32282e+02   4.06771e-06
-3.29282e+02   4.08664e-06
-3.26282e+02   4.10578e-06
-3.23282e+02   4.12516e-06
-3.20282e+02   4.14476e-06
-3.17282e+02   4.16460e-06
-3.14282e+02   4.18469e-06
-3.11282e+02   4.20502e-06
-3.08282e+02   4.22561e-06
-3.05282e+02   4.24647e-06
-3.02282e+02   4.26759e-06
-2.99282e+02   4.28898e-06
-2.96282e+02   4.31066e-06
-2.93282e+02   4.33262e-06
-2.90282e+02   4.35489e-06
-2.87282e+02   4.37746e-06
-2.84282e+02   4.40034e-06
-2.81282e+02   4.42355e-06
-2.78282e+02   4.44708e-06
-2.75282e+02   4.47096e-06
-2.72282e+02   4.49519e-06
-2.69282e+02   4.51977e-06
-2.66282e+02   4.54473e-06
-2.63282e+02   4.57007e-06
-2.60282e+02   4.59581e-06
-2.57282e+02   4.62194e-06
-2.54282e+02   4.64850e-06
-2.51282e+02   4.67549e-06
-2.48282e+02   4.70292e-06
-2.45282e+02   4.73081e-06
-2.42282e+02   4.75918e-06
-2.39282e+02   4.78803e-06
-2.36282e+02   4.81739e-06
-2.33282e+02   4.84727e-06
-2.30282e+02   4.87770e-06
-2.27282e+02   4.90868e-06
-2.24282e+02   4.94024e-06
-2.21282e+02   4.97240e-06
-2.18282e+02   5.00518e-06
-2.15282e+02   5.03861e-06
-2.12282e+02   5.07270e-06
-2.09282e+02   5.10749e-06
-2.06282e+02   5.14300e-06
-2.03282e+02   5.17925e-06
-2.00282e+02   5.21628e-06
-1.97282e+02   5.25412e-06
-1.94282e+02   5.29281e-06
-1.91282e+02   5.33236e-06
-1.88282e+02   5.37283e-06
-1.85282e+02   5.41425e-06
-1.82282e+02   5.45667e-06
-1.79282e+02   5.50012e-06
-1.76282e+02   5.54465e-06
-1.73282e+02   5.59031e-06
-1.70282e+02   5.63715e-06
-1.67282e+02   5.68523e-06
-1.64282e+02   5.73461e-06
-1.61282e+02   5.78535e-06
-1.58282e+02   5.83751e-06
-1.55282e+02   5.89117e-06
-1.52282e+02   5.94641e-06
-1.49282e+02   6.00329e-06
-1.46282e+02   6.06192e-06
-1.43282e+02   6.12238e-06
-1.40282e+02   6.18478e-06
-1.37282e+02   6.24922e-06
-1.34282e+02   6.31581e-06
-1.31282e+02   6.38468e-06
-1.28282e+02   6.45597e-06
-1.25282e+02   6.52982e-06
-1.22282e+02   6.60639e-06
-1.19282e+02   6.68583e-06
-1.16282e+02   6.76835e-06
-1.13282e+02   6.85413e-06
-1.10282e+02   6.94340e-06
-1.07282e+02   7.03639e-06
-1.04282e+02   7.13335e-06
-1.01282e+02   7.23458e-06
-9.82815e+01   7.34037e-06
-9.52815e+01   7.45108e-06
-9.22815e+01   7.56707e-06
-8.92815e+01   7.68875e-06
-8.62815e+01   7.81659e-06
-8.32815e+01   7.95108e-06
-8.02815e+01   8.09280e-06
-7.72815e+01   8.24237e-06
-7.42815e+01   8.40050e-06
-7.12815e+01   8.56797e-06
-6.82815e+01   8.74568e-06
-6.52815e+01   8.93462e-06
-6.22815e+01   9.13595e-06
-5.92815e+01   9.35097e-06
-5.62815e+01   9.58117e-06
-5.32815e+01   9.82826e-06
-5.02815e+01   1.00942e-05
-4.72815e+01   1.03814e-05
-4.42815e+01   1.06925e-05
-4.12815e+01   1.10307e-05
-3.82815e+01   1.13997e-05
-3.52815e+01   1.18042e-05
-3.22815e+01   1.22495e-05
-2.92815e+01   1.27422e-05
-2.62815e+01   1.32906e-05
-2.32815e+01   1.39045e-05
-2.02815e+01   1.45967e-05
-1.72815e+01   1.53828e-05
-1.42815e+01   1.62831e-05
-1.12815e+01   1.73236e-05
-8.28150e+00   1.85381e-05
-5.28150e+00   1.99707e-05
-2.28150e+00   2.16790e-05
7.18500e-01   2.37376e-05
3.71850e+00   2.62409e-05
6.71850e+00   2.92997e-05
9.71850e+00   3.30246e-05
1.27185e+01   3.74738e-05
1.57185e+01   4.25388e-05
1.87185e+01   4.77674e-05
2.17185e+01   5.22589e-05
2.47185e+01   5.49509e-05
2.77185e+01   5.53610e-05
3.07185e+01   5.40425e-05
3.37185e+01   5.21324e-05
3.67185e+01   5.06141e-05
3.97185e+01   5.00352e-05
4.27185e+01   5.06184e-05
4.57185e+01   5.24466e-05
4.87185e+01   5.55872e-05
5.17185e+01   6.01581e-05
5.47185e+01   6.63636e-05
5.77185e+01   7.45215e-05
6.07185e+01   8.50905e-05
6.37185e+01   9.86985e-05
6.67185e+01   1.16159e-04
6.97185e+01   1.38433e-04
7.27185e+01   1.66443e-04
7.57185e+01   2.00532e-04
7.87185e+01   2.39323e-04
8.17185e+01   2.78035e-04
8.47185e+01   3.07702e-04
8.77185e+01   3.18225e-04
9.07185e+01   3.05295e-04
9.37185e+01   2.74096e-04
9.67185e+01   2.34849e-04
9.97185e+01   1.96121e-04
1.02718e+02   1.62285e-04
1.05718e+02   1.34486e-04
1.08718e+02   1.12283e-04
1.11718e+02   9.47201e-05
1.14718e+02   8.08238e-05
1.17718e+02   6.97668e-05
1.20718e+02   6.08968e-05
1.23718e+02   5.37153e-05
1.26718e+02   4.78456e-05
1.29718e+02   4.30036e-05
1.32718e+02   3.89743e-05
1.35718e+02   3.55936e-05
1.38718e+02   3.27356e-05
1.41718e+02   3.03026e-05
1.44718e+02   2.82183e-05
1.47718e+02   2.64223e-05
1.50718e+02   2.48667e-05
1.53718e+02   2.35130e-05
1.56718e+02   2.23302e-05
1.59718e+02   2.12929e-05
1.62718e+02   2.03804e-05
1.65718e+02   1.95754e-05
1.68718e+02   1.88638e-05
1.71718e+02   1.82337e-05
1.74718e+02   1.76751e-05
1.77718e+02   1.71796e-05
1.80718e+02   1.67401e-05
1.83718e+02   1.63506e-05
1.86718e+02   1.60059e-05
1.89718e+02   1.57017e-05
1.92718e+02   1.54342e-05
1.95718e+02   1.52003e-05
1.98718e+02   1.49971e-05
2.01718e+02   1.48224e-05
2.04718e+02   1.46742e-05
2.07718e+02   1.45508e-05
2.10718e+02   1.44508e-05
2.13718e+02   1.43731e-05
2.16718e+02   1.43168e-05
2.19718e+02   1.42811e-05
2.22718e+02   1.42656e-05
2.25718e+02   1.42700e-05
2.28718e+02   1.42940e-05
2.31718e+02   1.43378e-05
2.34718e+02   1.44017e-05
2.37718e+02   1.44859e-05
2.40718e+02   1.45912e-05
2.43718e+02   1.47184e-05
2.46718e+02   1.48686e-05
2.49718e+02   1.50432e-05
2.52718e+02   1.52437e-05
2.55718e+02   1.54721e-05
2.58718e+02   1.57309e-05
2.61718e+02   1.60227e-05
2.64718e+02   1.63509e-05
2.67718e+02   1.67195e-05
2.70718e+02   1.71330e-05
2.73718e+02   1.75970e-05
2.76718e+02   1.81180e-05
2.79718e+02   1.87039e-05
2.82718e+02   1.93640e-05
2.85718e+02   2.01096e-05
2.88718e+02   2.09545e-05
2.91718e+02   2.19152e-05
2.94718e+02   2.30122e-05
2.97718e+02   2.42707e-05
3.00718e+02   2.57219e-05
3.03718e+02   2.74050e-05
3.06718e+02   2.93695e-05
3.09718e+02   3.16785e-05
3.12718e+02   3.44129e-05
3.15718e+02   3.76780e-05
3.18718e+02   4.16109e-05
3.21718e+02   4.63928e-05
3.24718e+02   5.22631e-05
3.27718e+02   5.95400e-05
3.30718e+02   6.86427e-05
3.33718e+02   8.01135e-05
3.36718e+02   9.46209e-05
3.39718e+02   1.12901e-04
3.42718e+02   1.35534e-04
3.45718e+02   1.62390e-04
3.48718e+02   1.91562e-04
3.51718e+02   2.18169e-04
3.54718e+02   2.34678e-04
3.57718e+02   2.34772e-04
3.60718e+02   2.18432e-04
3.63718e+02   1.91956e-04
3.66718e+02   1.62882e-04
3.69718e+02   1.36110e-04
3.72718e+02   1.13556e-04
3.75718e+02   9.53572e-05
3.78718e+02   8.09349e-05
3.81718e+02   6.95531e-05
3.84718e+02   6.05429e-05
3.87718e+02   5.33613e-05
3.90718e+02   4.75887e-05
3.93718e+02   4.29066e-05
3.96718e+02   3.90751e-05
3.99718e+02   3.59132e-05
4.02718e+02   3.32835e-05
4.05718e+02   3.10808e-05
4.08718e+02   2.92241e-05
4.11718e+02   2.76506e-05
4.14718e+02   2.63108e-05
4.17718e+02   2.51657e-05
4.20718e+02   2.41842e-05
4.23718e+02   2.33415e-05
4.26718e+02   2.26173e-05
4.29718e+02   2.19955e-05
4.32718e+02   2.14627e-05
4.35718e+02   2.10082e-05
4.38718e+02   2.06231e-05
4.41718e+02   2.03003e-05
4.44718e+02   2.00340e-05
4.47718e+02   1.98197e-05
4.50718e+02   1.96539e-05
4.53718e+02   1.95340e-05
4.56718e+02   1.94582e-05
4.59718e+02   1.94259e-05
4.62718e+02   1.94368e-05
4.65718e+02   1.94921e-05
4.68718e+02   1.95936e-05
4.71718e+02   1.97442e-05
4.74718e+02   1.99483e-05
4.77718e+02   2.02118e-05
4.80718e+02   2.05425e-05
4.83718e+02   2.09507e-05
4.86718e+02   2.14500e-05
4.89718e+02   2.20581e-05
4.92718e+02   2.27980e-05
4.95718e+02   2.37004e-05
4.98718e+02   2.48055e-05
5.01718e+02   2.61669e-05
5.04718e+02   2.78560e-05
5.07718e+02   2.99673e-05
5.10718e+02   3.26243e-05
5.13718e+02   3.59831e-05
5.16718e+02   4.02247e-05
5.19718e+02   4.55188e-05
5.22718e+02   5.19206e-05
5.25718e+02   5.91522e-05
5.28718e+02   6.62871e-05
5.31718e+02   7.16220e-05
5.34718e+02   7.33039e-05
5.37718e+02   7.06621e-05
5.40718e+02   6.48082e-05
5.43718e+02   5.76726e-05
5.46718e+02   5.07696e-05
5.49718e+02   4.48211e-05
5.52718e+02   3.99861e-05
5.55718e+02   3.61623e-05
5.58718e+02   3.31705e-05
5.61718e+02   3.08341e-05
5.64718e+02   2.90060e-05
5.67718e+02   2.75706e-05
5.70718e+02   2.64400e-05
5.73718e+02   2.55482e-05
5.76718e+02   2.48453e-05
5.79718e+02   2.42937e-05
5.82718e+02   2.38649e-05
5.85718e+02   2.35373e-05
5.88718e+02   2.32942e-05
5.91718e+02   2.31230e-05
5.94718e+02   2.30138e-05
5.97718e+02   2.29593e-05
6.00718e+02   2.29541e-05
6.03718e+02   2.29942e-05
6.06718e+02   2.30772e-05
6.09718e+02   2.32019e-05
6.12718e+02   2.33682e-05
6.15718e+02   2.35775e-05
6.18718e+02   2.38324e-05
6.21718e+02   2.41373e-05
6.24718e+02   2.44986e-05
6.27718e+02   2.49251e-05
6.30718e+02   2.54293e-05
6.33718e+02   2.60277e-05
6.36718e+02   2.67425e-05
6.39718e+02   2.76035e-05
6.42718e+02   2.86485e-05
6.45718e+02   2.99239e-05
6.48718e+02   3.14788e-05
6.51718e+02   3.33473e-05
6.54718e+02   3.55062e-05
6.57718e+02   3.78026e-05
6.60718e+02   3.98897e-05
6.63718e+02   4.12991e-05
6.66718e+02   4.17339e-05
6.69718e+02   4.13401e-05
6.72718e+02   4.05995e-05
6.75718e+02   3.99956e-05
6.78718e+02   3.98276e-05
6.81718e+02   4.02166e-05
6.84718e+02   4.11507e-05
6.87718e+02   4.24790e-05
6.90718e+02   4.38632e-05
6.93718e+02   4.47986e-05
6.96718e+02   4.48452e-05
6.99718e+02   4.39511e-05
7.02718e+02   4.24769e-05
7.05718e+02   4.08853e-05
7.08718e+02   3.94850e-05
7.11718e+02   3.83981e-05
7.14718e+02   3.76330e-05
7.17718e+02   3.71519e-05
7.20718e+02   3.69072e-05
7.23718e+02   3.68559e-05
7.26718e+02   3.69639e-05
7.29718e+02   3.72058e-05
7.32718e+02   3.75632e-05
7.35718e+02   3.80237e-05
7.38718e+02   3.85795e-05
7.41718e+02   3.92264e-05
7.44718e+02   3.99637e-05
7.47718e+02   4.07934e-05
7.50718e+02   4.17204e-05
7.53718e+02   4.27524e-05
7.56718e+02   4.39007e-05
7.59718e+02   4.51801e-05
7.62718e+02   4.66103e-05
7.65718e+02   4.82172e-05
7.68718e+02   5.00341e-05
7.71718e+02   5.21047e-05
7.74718e+02   5.44865e-05
7.77718e+02   5.72550e-05
7.80718e+02   6.05101e-05
7.83718e+02   6.43832e-05
7.86718e+02   6.90449e-05
7.89718e+02   7.47090e-05
7.92718e+02   8.16209e-05
7.95718e+02   9.00064e-05
7.98718e+02   9.99295e-05
8.01718e+02   1.11005e-04
8.04718e+02   1.22012e-04
8.07718e+02   1.30773e-04
8.10718e+02   1.34958e-04
8.13718e+02   1.33652e-04
8.16718e+02   1.28130e-04
8.19718e+02   1.20838e-04
8.22718e+02   1.13850e-04
8.25718e+02   1.08254e-04
8.28718e+02   1.04360e-04
8.31718e+02   1.02097e-04
8.34718e+02   1.01269e-04
8.37718e+02   1.01685e-04
8.40718e+02   1.03196e-04
8.43718e+02   1.05706e-04
8.46718e+02   1.09174e-04
8.49718e+02   1.13605e-04
8.52718e+02   1.19051e-04
8.55718e+02   1.25613e-04
8.58718e+02   1.33445e-04
8.61718e+02   1.42764e-04
8.64718e+02   1.53868e-04
8.67718e+02   1.67153e-04
8.70718e+02   1.83148e-04
8.73718e+02   2.02539e-04
8.76718e+02   2.26200e-04
8.79718e+02   2.55174e-04
8.82718e+02   2.90540e-04
8.85718e+02   3.33017e-04
8.88718e+02   3.82093e-04
8.91718e+02   4.34803e-04
8.94718e+02   4.85316e-04
8.97718e+02   5.27580e-04
9.00718e+02   5.60415e-04
9.03718e+02   5.88998e-04
9.06718e+02   6.19728e-04
9.09718e+02   6.54496e-04
9.12718e+02   6.90298e-04
9.15718e+02   7.23717e-04
9.18718e+02   7.55032e-04
9.21718e+02   7.88446e-04
9.24718e+02   8.30298e-04
9.27718e+02   8.85809e-04
9.30718e+02   9.53543e-04
9.33718e+02   1.02081e-03
9.36718e+02   1.06639e-03
9.39718e+02   1.07451e-03
9.42718e+02   1.04957e-03
9.45718e+02   1.01330e-03
9.48718e+02   9.88380e-04
9.51718e+02   9.86861e-04
9.54718e+02   1.00702e-03
9.57718e+02   1.03359e-03
9.60718e+02   1.04199e-03
9.63718e+02   1.01188e-03
9.66718e+02   9.42492e-04
9.69718e+02   8.51862e-04
9.72718e+02   7.61457e-04
9.75718e+02   6.85096e-04
9.78718e+02   6.28310e-04
9.81718e+02   5.91976e-04
9.84718e+02   5.75400e-04
9.87718e+02   5.77849e-04
9.90718e+02   5.98864e-04
9.93718e+02   6.37530e-04
9.96718e+02   6.90518e-04
9.99718e+02   7.48987e-04
1.00272e+03   7.96615e-04
1.00572e+03   8.14208e-04
1.00872e+03   7.92251e-04
1.01172e+03   7.38950e-04
1.01472e+03   6.72782e-04
1.01772e+03   6.09715e-04
1.02072e+03   5.58099e-04
1.02372e+03   5.20388e-04
1.02672e+03   4.96206e-04
1.02972e+03   4.84365e-04
1.03272e+03   4.83819e-04
1.03572e+03   4.94028e-04
1.03872e+03   5.15085e-04
1.04172e+03   5.47783e-04
1.04472e+03   5.93694e-04
1.04772e+03   6.55288e-04
1.05072e+03   7.36082e-04
1.05372e+03   8.40741e-04
1.05672e+03   9.74938e-04
1.05972e+03   1.14444e-03
1.06272e+03   1.35248e-03
1.06572e+03   1.59399e-03
1.06872e+03   1.84720e-03
1.07172e+03   2.06980e-03
1.07472e+03   2.21471e-03
1.07772e+03   2.26359e-03
1.08072e+03   2.23993e-03
1.08372e+03   2.18059e-03
1.08672e+03   2.10607e-03
1.08972e+03   2.02311e-03
1.09272e+03   1.93971e-03
1.09572e+03   1.86197e-03
1.09872e+03   1.78032e-03
1.10172e+03   1.67152e-03
1.10472e+03   1.52101e-03
1.10772e+03   1.33930e-03
1.11072e+03   1.15199e-03
1.11372e+03   9.80480e-04
1.11672e+03   8.34482e-04
1.11972e+03   7.14858e-04
1.12272e+03   6.18410e-04
1.12572e+03   5.40908e-04
1.12872e+03   4.78414e-04
1.13172e+03   4.27677e-04
1.13472e+03   3.86149e-04
1.13772e+03   3.51873e-04
1.14072e+03   3.23355e-04
1.14372e+03   2.99451e-04
1.14672e+03   2.79283e-04
1.14972e+03   2.62171e-04
1.15272e+03   2.47581e-04
1.15572e+03   2.35095e-04
1.15872e+03   2.24379e-04
1.16172e+03   2.15166e-04
1.16472e+03   2.07240e-04
1.16772e+03   2.00425e-04
1.17072e+03   1.94578e-04
1.17372e+03   1.89580e-04
1.17672e+03   1.85333e-04
1.17972e+03   1.81756e-04
1.18272e+03   1.78782e-04
1.18572e+03   1.76353e-04
1.18872e+03   1.74424e-04
1.19172e+03   1.72954e-04
1.19472e+03   1.71912e-04
1.19772e+03   1.71270e-04
1.20072e+03   1.71006e-04
1.20372e+03   1.71103e-04
1.20672e+03   1.71548e-04
1.20972e+03   1.72330e-04
1.21272e+03   1.73441e-04
1.21572e+03   1.74879e-04
1.21872e+03   1.76641e-04
1.22172e+03   1.78730e-04
1.22472e+03   1.81148e-04
1.22772e+03   1.83903e-04
1.23072e+03   1.87004e-04
1.23372e+03   1.90463e-04
1.23672e+03   1.94295e-04
1.23972e+03   1.98519e-04
1.24272e+03   2.03156e-04
1.24572e+03   2.08231e-04
1.24872e+03   2.13773e-04
1.25172e+03   2.19817e-04
1.25472e+03   2.26402e-04
1.25772e+03   2.33574e-04
1.26072e+03   2.41384e-04
1.26372e+03   2.49892e-04
1.26672e+03   2.59168e-04
1.26972e+03   2.69293e-04
1.27272e+03   2.80357e-04
1.27572e+03   2.92470e-04
1.27872e+03   3.05757e-04
1.28172e+03   3.20366e-04
1.28472e+03   3.36469e-04
1.28772e+03   3.54272e-04
1.29072e+03   3.74018e-04
1.29372e+03   3.95998e-04
1.29672e+03   4.20562e-04
1.29972e+03   4.48133e-04
1.30272e+03   4.79228e-04
1.30572e+03   5.14483e-04
1.30872e+03   5.54682e-04
1.31172e+03   6.00807e-04
1.31472e+03   6.54095e-04
1.31772e+03   7.16116e-04
1.32072e+03   7.88888e-04
1.32372e+03   8.75017e-04
1.32672e+03   9.77909e-04
1.32972e+03   1.10203e-03
1.33272e+03   1.25327e-03
1.33572e+03   1.43935e-03
1.33872e+03   1.67025e-03
1.34172e+03   1.95834e-03
1.34472e+03   2.31762e-03
1.34772e+03   2.76032e-03
1.35072e+03   3.28829e-03
1.35372e+03   3.87652e-03
1.35672e+03   4.45471e-03
1.35972e+03   4.91322e-03
1.36272e+03   5.16452e-03
1.36572e+03   5.22072e-03
1.36872e+03   5.18678e-03
1.37172e+03   5.16788e-03
1.37472e+03   5.19052e-03
1.37772e+03   5.18670e-03
1.38072e+03   5.04349e-03
1.38372e+03   4.69795e-03
1.38672e+03   4.19342e-03
1.38972e+03   3.63461e-03
1.39272e+03   3.11030e-03
1.39572e+03   2.66345e-03
1.39872e+03   2.30211e-03
1.40172e+03   2.01776e-03
1.40472e+03   1.79715e-03
1.40772e+03   1.62754e-03
1.41072e+03   1.49838e-03
1.41372e+03   1.40149e-03
1.41672e+03   1.33071e-03
1.41972e+03   1.28151e-03
1.42272e+03   1.25062e-03
1.42572e+03   1.23574e-03
1.42872e+03   1.23532e-03
1.43172e+03   1.24845e-03
1.43472e+03   1.27474e-03
1.43772e+03   1.31428e-03
1.44072e+03   1.36760e-03
1.44372e+03   1.43571e-03
1.44672e+03   1.52012e-03
1.44972e+03   1.62292e-03
1.45272e+03   1.74691e-03
1.45572e+03   1.89578e-03
1.45872e+03   2.07430e-03
1.46172e+03   2.28868e-03
1.46472e+03   2.54704e-03
1.46772e+03   2.85999e-03
1.47072e+03   3.24151e-03
1.47372e+03   3.71014e-03
1.47672e+03   4.29047e-03
1.47972e+03   5.01516e-03
1.48272e+03   5.92712e-03
1.48572e+03   7.08124e-03
1.48872e+03   8.54340e-03
1.49172e+03   1.03813e-02
1.49472e+03   1.26354e-02
1.49772e+03   1.52517e-02
1.50072e+03   1.79693e-02
1.50372e+03   2.02308e-02
1.50672e+03   2.13100e-02
1.50972e+03   2.07684e-02
1.51272e+03   1.88322e-02
1.51572e+03   1.61899e-02
1.51872e+03   1.34900e-02
1.52172e+03   1.10917e-02
1.52472e+03   9.10645e-03
1.52772e+03   7.51648e-03
1.53072e+03   6.25871e-03
1.53372e+03   5.26491e-03
1.53672e+03   4.47604e-03
1.53972e+03   3.84523e-03
1.54272e+03   3.33658e-03
1.54572e+03   2.92303e-03
1.54872e+03   2.58429e-03
1.55172e+03   2.30513e-03
1.55472e+03   2.07414e-03
1.55772e+03   1.88281e-03
1.56072e+03   1.72483e-03
1.56372e+03   1.59569e-03
1.56672e+03   1.49233e-03
1.56972e+03   1.41295e-03
1.57272e+03   1.35680e-03
1.57572e+03   1.32385e-03
1.57872e+03   1.31399e-03
1.58172e+03   1.32523e-03
1.58472e+03   1.35041e-03
1.58772e+03   1.37366e-03
1.59072e+03   1.37157e-03
1.59372e+03   1.32505e-03
1.59672e+03   1.23423e-03
1.59972e+03   1.11774e-03
1.60272e+03   9.97442e-04
1.60572e+03   8.87214e-04
1.60872e+03   7.92187e-04
1.61172e+03   7.12374e-04
1.61472e+03   6.45771e-04
1.61772e+03   5.89976e-04
1.62072e+03   5.42825e-04
1.62372e+03   5.02552e-04
1.62672e+03   4.67776e-04
1.62972e+03   4.37432e-04
1.63272e+03   4.10702e-04
1.63572e+03   3.86950e-04
1.63872e+03   3.65684e-04
1.64172e+03   3.46513e-04
1.64472e+03   3.29128e-04
1.64772e+03   3.13278e-04
1.65072e+03   2.98759e-04
1.65372e+03   2.85405e-04
1.65672e+03   2.73076e-04
1.65972e+03   2.61655e-04
1.66272e+03   2.51043e-04
1.66572e+03   2.41157e-04
1.66872e+03   2.31923e-04
1.67172e+03   2.23279e-04
1.67472e+03   2.15170e-04
1.67772e+03   2.07549e-04
1.68072e+03   2.00373e-04
1.68372e+03   1.93606e-04
1.68672e+03   1.87215e-04
1.68972e+03   1.81170e-04
1.69272e+03   1.75444e-04
1.69572e+03   1.70014e-04
1.69872e+03   1.64859e-04
1.70172e+03   1.59959e-04
1.70472e+03   1.55296e-04
1.70772e+03   1.50856e-04
1.71072e+03   1.46622e-04
1.71372e+03   1.42583e-04
1.71672e+03   1.38725e-04
1.71972e+03   1.35037e-04
1.72272e+03   1.31509e-04
1.72572e+03   1.28133e-04
1.72872e+03   1.24898e-04
1.73172e+03   1.21796e-04
1.73472e+03   1.18821e-04
1.73772e+03   1.15966e-04
1.74072e+03   1.13223e-04
1.74372e+03   1.10587e-04
1.74672e+03   1.08052e-04
1.74972e+03   1.05613e-04
1.75272e+03   1.03265e-04
1.75572e+03   1.01004e-04
1.75872e+03   9.88244e-05
1.76172e+03   9.67235e-05
1.76472e+03   9.46970e-05
1.76772e+03   9.27414e-05
1.77072e+03   9.08535e-05
1.77372e+03   8.90301e-05
1.77672e+03   8.72683e-05
1.77972e+03   8.55653e-05
1.78272e+03   8.39185e-05
1.78572e+03   8.23255e-05
1.78872e+03   8.07839e-05
1.79172e+03   7.92915e-05
1.79472e+03   7.78463e-05
1.79772e+03   7.64463e-05
1.80072e+03   7.50896e-05
1.80372e+03   7.37745e-05
1.80672e+03   7.24993e-05
1.80972e+03   7.12625e-05
1.81272e+03   7.00624e-05
1.81572e+03   6.88978e-05
1.81872e+03   6.77671e-05
1.82172e+03   6.66692e-05
1.82472e+03   6.56028e-05
1.82772e+03   6.45667e-05
1.83072e+03   6.35598e-05
1.83372e+03   6.25811e-05
1.83672e+03   6.16295e-05
1.83972e+03   6.07041e-05
1.84272e+03   5.98039e-05
1.84572e+03   5.89280e-05
1.84872e+03   5.80757e-05
1.85172e+03   5.72461e-05
1.85472e+03   5.64384e-05
1.85772e+03   5.56520e-05
1.86072e+03   5.48860e-05
1.86372e+03   5.41399e-05
1.86672e+03   5.34129e-05
1.86972e+03   5.27044e-05
1.87272e+03   5.20140e-05
1.87572e+03   5.13409e-05
1.87872e+03   5.06847e-05
1.88172e+03   5.00448e-05
1.88472e+03   4.94207e-05
1.88772e+03   4.88119e-05
1.89072e+03   4.82180e-05
1.89372e+03   4.76386e-05
1.89672e+03   4.70731e-05
1.89972e+03   4.65212e-05
1.90272e+03   4.59825e-05
1.90572e+03   4.54566e-05
1.90872e+03   4.49432e-05
1.91172e+03   4.44418e-05
1.91472e+03   4.39522e-05
1.91772e+03   4.34740e-05
1.92072e+03   4.30068e-05
1.92372e+03   4.25505e-05
1.92672e+03   4.21047e-05
1.92972e+03   4.16691e-05
1.93272e+03   4.12435e-05
1.93572e+03   4.08276e-05
1.93872e+03   4.04211e-05
1.94172e+03   4.00237e-05
1.94472e+03   3.96354e-05
1.94772e+03   3.92557e-05
1.95072e+03   3.88846e-05
1.95372e+03   3.85217e-05
1.95672e+03   3.81669e-05
1.95972e+03   3.78201e-05
1.96272e+03   3.74809e-05
1.96572e+03   3.71492e-05
1.96872e+03   3.68248e-05
1.97172e+03   3.65076e-05
1.97472e+03   3.61974e-05
1.97772e+03   3.58940e-05
1.98072e+03   3.55973e-05
1.98372e+03   3.53071e-05
1.98672e+03   3.50233e-05
1.98972e+03   3.47457e-05
1.99272e+03   3.44741e-05
1.99572e+03   3.42086e-05
1.99872e+03   3.39488e-05
2.00172e+03   3.36948e-05
2.00472e+03   3.34463e-05
2.00772e+03   3.32033e-05
2.01072e+03   3.29657e-05
2.01372e+03   3.27332e-05
2.01672e+03   3.25059e-05
2.01972e+03   3.22837e-05
2.02272e+03   3.20663e-05
2.02572e+03   3.18538e-05
2.02872e+03   3.16460e-05
2.03172e+03   3.14429e-05
2.03472e+03   3.12443e-05
2.03772e+03   3.10501e-05
2.04072e+03   3.08604e-05
2.04372e+03   3.06749e-05
2.04672e+03   3.04937e-05
2.04972e+03   3.03166e-05
2.05272e+03   3.01436e-05
2.05572e+03   2.99746e-05
2.05872e+03   2.98095e-05
2.06172e+03   2.96483e-05
2.06472e+03   2.94909e-05
2.06772e+03   2.93372e-05
2.07072e+03   2.91872e-05
2.07372e+03   2.90408e-05
2.07672e+03   2.88979e-05
2.07972e+03   2.87586e-05
2.08272e+03   2.86227e-05
2.08572e+03   2.84901e-05
2.08872e+03   2.83609e-05
2.09172e+03   2.82351e-05
2.09472e+03   2.81124e-05
2.09772e+03   2.79929e-05
2.10072e+03   2.78766e-05
2.10372e+03   2.77634e-05
2.10672e+03   2.76533e-05
2.10972e+03   2.75461e-05
2.11272e+03   2.74420e-05
2.11572e+03   2.73408e-05
2.11872e+03   2.72425e-05
2.12172e+03   2.71471e-05
2.12472e+03   2.70545e-05
2.12772e+03   2.69647e-05
2.13072e+03   2.68776e-05
2.13372e+03   2.67933e-05
2.13672e+03   2.67117e-05
2.13972e+03   2.66328e-05
2.14272e+03   2.65565e-05
2.14572e+03   2.64829e-05
2.14872e+03   2.64118e-05
2.15172e+03   2.63433e-05
2.15472e+03   2.62773e-05
2.15772e+03   2.62139e-05
2.16072e+03   2.61530e-05
2.16372e+03   2.60945e-05
2.16672e+03   2.60384e-05
2.16972e+03   2.59849e-05
2.17272e+03   2.59337e-05
2.17572e+03   2.58849e-05
2.17872e+03   2.58385e-05
2.18172e+03   2.57944e-05
2.18472e+03   2.57527e-05
2.18772e+03   2.57133e-05
2.19072e+03   2.56762e-05
2.19372e+03   2.56414e-05
2.19672e+03   2.56090e-05
2.19972e+03   2.55787e-05
2.20272e+03   2.55508e-05
2.20572e+03   2.55251e-05
2.20872e+03   2.55016e-05
2.21172e+03   2.54803e-05
2.21472e+03   2.54613e-05
2.21772e+03   2.54445e-05
2.22072e+03   2.54299e-05
2.22372e+03   2.54175e-05
2.22672e+03   2.54073e-05
2.22972e+03   2.53993e-05
2.23272e+03   2.53934e-05
2.23572e+03   2.53897e-05
2.23872e+03   2.53883e-05
2.24172e+03   2.53889e-05
2.24472e+03   2.53918e-05
2.24772e+03   2.53968e-05
2.25072e+03   2.54040e-05
2.25372e+03   2.54133e-05
2.25672e+03   2.54248e-05
2.25972e+03   2.54385e-05
2.26272e+03   2.54544e-05
2.26572e+03   2.54724e-05
2.26872e+03   2.54926e-05
2.27172e+03   2.55150e-05
2.27472e+03   2.55396e-05
2.27772e+03   2.55663e-05
2.28072e+03   2.55953e-05
2.28372e+03   2.56264e-05
2.28672e+03   2.56598e-05
2.28972e+03   2.56953e-05
2.29272e+03   2.57331e-05
2.29572e+03   2.57732e-05
2.29872e+03   2.58154e-05
2.30172e+03   2.58599e-05
2.30472e+03   2.59067e-05
2.30772e+03   2.59558e-05
2.31072e+03   2.60071e-05
2.31372e+03   2.60608e-05
2.31672e+03   2.61167e-05
2.31972e+03   2.61750e-05
2.32272e+03   2.62356e-05
2.32572e+03   2.62986e-05
2.32872e+03   2.63640e-05
2.33172e+03   2.64318e-05
2.33472e+03   2.65020e-05
2.33772e+03   2.65746e-05
2.34072e+03   2.66496e-05
2.34372e+03   2.67272e-05
2.34672e+03   2.68072e-05
2.34972e+03   2.68898e-05
2.35272e+03   2.69749e-05
2.35572e+03   2.70625e-05
2.35872e+03   2.71528e-05
2.36172e+03   2.72456e-05
2.36472e+03   2.73411e-05
2.36772e+03   2.74393e-05
2.37072e+03   2.75402e-05
2.37372e+03   2.76438e-05
2.37672e+03   2.77502e-05
2.37972e+03   2.78594e-05
2.38272e+03   2.79714e-05
2.38572e+03   2.80862e-05
2.38872e+03   2.82040e-05
2.39172e+03   2.83247e-05
2.39472e+03   2.84483e-05
2.39772e+03   2.85750e-05
2.40072e+03   2.87047e-05
2.40372e+03   2.88375e-05
2.40672e+03   2.89735e-05
2.40972e+03   2.91126e-05
2.41272e+03   2.92549e-05
2.41572e+03   2.94006e-05
2.41872e+03   2.95495e-05
2.42172e+03   2.97018e-05
2.42472e+03   2.98575e-05
2.42772e+03   3.00167e-05
2.43072e+03   3.01794e-05
2.43372e+03   3.03457e-05
2.43672e+03   3.05156e-05
2.43972e+03   3.06892e-05
2.44272e+03   3.08666e-05
2.44572e+03   3.10477e-05
2.44872e+03   3.12328e-05
2.45172e+03   3.14218e-05
2.45472e+03   3.16149e-05
2.45772e+03   3.18120e-05
2.46072e+03   3.20133e-05
2.46372e+03   3.22188e-05
2.46672e+03   3.24286e-05
2.46972e+03   3.26429e-05
2.47272e+03   3.28616e-05
2.47572e+03   3.30848e-05
2.47872e+03   3.33127e-05
2.48172e+03   3.35454e-05
2.48472e+03   3.37828e-05
2.48772e+03   3.40252e-05
2.49072e+03   3.42726e-05
2.49372e+03   3.45251e-05
2.49672e+03   3.47828e-05
2.49972e+03   3.50459e-05
2.50272e+03   3.53144e-05
2.50572e+03   3.55884e-05
2.50872e+03   3.58681e-05
2.51172e+03   3.61536e-05
2.51472e+03   3.64450e-05
2.51772e+03   3.67425e-05
2.52072e+03   3.70461e-05
2.52372e+03   3.73561e-05
2.52672e+03   3.76724e-05
2.52972e+03   3.79954e-05
2.53272e+03   3.83252e-05
2.53572e+03   3.86618e-05
2.53872e+03   3.90055e-05
2.54172e+03   3.93565e-05
2.54472e+03   3.97148e-05
2.54772e+03   4.00807e-05
2.55072e+03   4.04544e-05
2.55372e+03   4.08360e-05
2.55672e+03   4.12258e-05
2.55972e+03   4.16239e-05
2.56272e+03   4.20305e-05
2.56572e+03   4.24459e-05
2.56872e+03   4.28704e-05
2.57172e+03   4.33040e-05
2.57472e+03   4.37471e-05
2.57772e+03   4.41999e-05
2.58072e+03   4.46627e-05
2.58372e+03   4.51357e-05
2.58672e+03   4.56192e-05
2.58972e+03   4.61135e-05
2.59272e+03   4.66189e-05
2.59572e+03   4.71356e-05
2.59872e+03   4.76641e-05
2.60172e+03   4.82047e-05
2.60472e+03   4.87576e-05
2.60772e+03   4.93232e-05
2.61072e+03   4.99019e-05
2.61372e+03   5.04942e-05
2.61672e+03   5.11003e-05
2.61972e+03   5.17207e-05
2.62272e+03   5.23558e-05
2.62572e+03   5.30061e-05
2.62872e+03   5.36721e-05
2.63172e+03   5.43541e-05
2.63472e+03   5.50528e-05
2.63772e+03   5.57686e-05
2.64072e+03   5.65021e-05
2.64372e+03   5.72539e-05
2.64672e+03   5.80245e-05
2.64972e+03   5.88146e-05
2.65272e+03   5.96248e-05
2.65572e+03   6.04558e-05
2.65872e+03   6.13082e-05
2.66172e+03   6.21829e-05
2.66472e+03   6.30805e-05
2.66772e+03   6.40020e-05
2.67072e+03   6.49480e-05
2.67372e+03   6.59195e-05
2.67672e+03   6.69174e-05
2.67972e+03   6.79427e-05
2.68272e+03   6.89963e-05
2.68572e+03   7.00794e-05
2.68872e+03   7.11929e-05
2.69172e+03   7.23382e-05
2.69472e+03   7.35163e-05
2.69772e+03   7.47285e-05
2.70072e+03   7.59762e-05
2.70372e+03   7.72609e-05
2.70672e+03   7.85838e-05
2.70972e+03   7.99467e-05
2.71272e+03   8.13512e-05
2.71572e+03   8.27989e-05
2.71872e+03   8.42918e-05
2.72172e+03   8.58316e-05
2.72472e+03   8.74205e-05
2.72772e+03   8.90605e-05
2.73072e+03   9.07540e-05
2.73372e+03   9.25032e-05
2.73672e+03   9.43108e-05
2.73972e+03   9.61793e-05
2.74272e+03   9.81117e-05
2.74572e+03   1.00111e-04
2.74872e+03   1.02180e-04
2.75172e+03   1.04323e-04
2.75472e+03   1.06542e-04
2.75772e+03   1.08842e-04
2.76072e+03   1.11228e-04
2.76372e+03   1.13702e-04
2.76672e+03   1.16270e-04
2.76972e+03   1.18937e-04
2.77272e+03   1.21708e-04
2.77572e+03   1.24588e-04
2.77872e+03   1.27584e-04
2.78172e+03   1.30702e-04
2.78472e+03   1.33950e-04
2.78772e+03   1.37333e-04
2.79072e+03   1.40861e-04
2.79372e+03   1.44542e-04
2.79672e+03   1.48385e-04
2.79972e+03   1.52401e-04
2.80272e+03   1.56599e-04
2.80572e+03   1.60992e-04
2.80872e+03   1.65593e-04
2.81172e+03   1.70414e-04
2.81472e+03   1.75472e-04
2.81772e+03   1.80781e-04
2.82072e+03   1.86359e-04
2.82372e+03   1.92227e-04
2.82672e+03   1.98404e-04
2.82972e+03   2.04914e-04
2.83272e+03   2.11781e-04
2.83572e+03   2.19034e-04
2.83872e+03   2.26703e-04
2.84172e+03   2.34821e-04
2.84472e+03   2.43425e-04
2.84772e+03   2.52556e-04
2.85072e+03   2.62260e-04
2.85372e+03   2.72587e-04
2.85672e+03   2.83594e-04
2.85972e+03   2.95342e-04
2.86272e+03   3.07904e-04
2.86572e+03   3.21358e-04
2.86872e+03   3.35794e-04
2.87172e+03   3.51312e-04
2.87472e+03   3.68028e-04
2.87772e+03   3.86071e-04
2.88072e+03   4.05590e-04
2.88372e+03   4.26755e-04
2.88672e+03   4.49763e-04
2.88972e+03   4.74841e-04
2.89272e+03   5.02250e-04
2.89572e+03   5.32298e-04
2.89872e+03   5.65343e-04
2.90172e+03   6.01808e-04
2.90472e+03   6.42192e-04
2.90772e+03   6.87090e-04
2.91072e+03   7.37216e-04
2.91372e+03   7.93427e-04
2.91672e+03   8.56767e-04
2.91972e+03   9.28510e-04
2.92272e+03   1.01023e-03
2.92572e+03   1.10387e-03
2.92872e+03   1.21188e-03
2.93172e+03   1.33733e-03
2.93472e+03   1.48418e-03
2.93772e+03   1.65748e-03
2.94072e+03   1.86380e-03
2.94372e+03   2.11176e-03
2.94672e+03   2.41269e-03
2.94972e+03   2.78159e-03
2.95272e+03   3.23827e-03
2.95572e+03   3.80851e-03
2.95872e+03   4.52477e-03
2.96172e+03   5.42468e-03
2.96472e+03   6.54360e-03
2.96772e+03   7.89344e-03
2.97072e+03   9.41810e-03
2.97372e+03   1.09296e-02
2.97672e+03   1.20840e-02
2.97972e+03   1.25115e-02
2.98272e+03   1.20868e-02
2.98572e+03   1.10462e-02
2.98872e+03   9.78889e-03
2.99172e+03   8.62984e-03
2.99472e+03   7.72723e-03
2.99772e+03   7.13073e-03
3.00072e+03   6.84281e-03
3.00372e+03   6.85432e-03
3.00672e+03   7.15466e-03
3.00972e+03   7.72063e-03
3.01272e+03   8.48329e-03
3.01572e+03   9.27967e-03
3.01872e+03   9.83634e-03
3.02172e+03   9.87021e-03
3.02472e+03   9.28787e-03
3.02772e+03   8.26205e-03
3.03072e+03   7.07779e-03
3.03372e+03   5.95194e-03
3.03672e+03   4.98394e-03
3.03972e+03   4.19222e-03
3.04272e+03   3.55861e-03
3.04572e+03   3.05470e-03
3.04872e+03   2.65319e-03
3.05172e+03   2.33137e-03
3.05472e+03   2.07148e-03
3.05772e+03   1.85997e-03
3.06072e+03   1.68658e-03
3.06372e+03   1.54353e-03
3.06672e+03   1.42493e-03
3.06972e+03   1.32626e-03
3.07272e+03   1.24407e-03
3.07572e+03   1.17567e-03
3.07872e+03   1.11896e-03
3.08172e+03   1.07233e-03
3.08472e+03   1.03449e-03
3.08772e+03   1.00448e-03
3.09072e+03   9.81523e-04
3.09372e+03   9.65067e-04
3.09672e+03   9.54706e-04
3.09972e+03   9.50179e-04
3.10272e+03   9.51354e-04
3.10572e+03   9.58222e-04
3.10872e+03   9.70891e-04
3.11172e+03   9.89598e-04
3.11472e+03   1.01471e-03
3.11772e+03   1.04676e-03
3.12072e+03   1.08644e-03
3.12372e+03   1.13466e-03
3.12672e+03   1.19259e-03
3.12972e+03   1.26171e-03
3.13272e+03   1.34392e-03
3.13572e+03   1.44164e-03
3.13872e+03   1.55795e-03
3.14172e+03   1.69686e-03
3.14472e+03   1.86353e-03
3.14772e+03   2.06473e-03
3.15072e+03   2.30933e-03
3.15372e+03   2.60903e-03
3.15672e+03   2.97915e-03
3.15972e+03   3.43949e-03
3.16272e+03   4.01465e-03
3.16572e+03   4.73250e-03
3.16872e+03   5.61783e-03
3.17172e+03   6.67582e-03
3.17472e+03   7.86096e-03
3.17772e+03   9.04262e-03
3.18072e+03   1.00168e-02
3.18372e+03   1.06150e-02
3.18672e+03   1.08297e-02
3.18972e+03   1.07850e-02
3.19272e+03   1.05972e-02
3.19572e+03   1.03331e-02
3.19872e+03   1.00704e-02
3.20172e+03   9.91033e-03
3.20472e+03   9.91670e-03
3.20772e+03   1.00870e-02
3.21072e+03   1.03963e-02
3.21372e+03   1.08493e-02
3.21672e+03   1.14469e-02
3.21972e+03   1.20827e-02
3.22272e+03   1.24878e-02
3.22572e+03   1.23405e-02
3.22872e+03   1.15128e-02
3.23172e+03   1.01861e-02
3.23472e+03   8.68579e-03
3.23772e+03   7.26680e-03
3.24072e+03   6.04705e-03
3.24372e+03   5.04761e-03
3.24672e+03   4.24528e-03
3.24972e+03   3.60449e-03
3.25272e+03   3.09111e-03
3.25572e+03   2.67681e-03
3.25872e+03   2.33936e-03
3.26172e+03   2.06179e-03
3.26472e+03   1.83119e-03
3.26772e+03   1.63779e-03
3.27072e+03   1.47413e-03
3.27372e+03   1.33446e-03
3.27672e+03   1.21433e-03
3.27972e+03   1.11027e-03
3.28272e+03   1.01952e-03
3.28572e+03   9.39900e-04
3.28872e+03   8.69640e-04
3.29172e+03   8.07316e-04
3.29472e+03   7.51762e-04
3.29772e+03   7.02019e-04
3.30072e+03   6.57292e-04
3.30372e+03   6.16918e-04
3.30672e+03   5.80340e-04
3.30972e+03   5.47088e-04
3.31272e+03   5.16764e-04
3.31572e+03   4.89026e-04
3.31872e+03   4.63584e-04
3.32172e+03   4.40184e-04
3.32472e+03   4.18610e-04
3.32772e+03   3.98672e-04
3.33072e+03   3.80206e-04
3.33372e+03   3.63066e-04
3.33672e+03   3.47125e-04
3.33972e+03   3.32272e-04
3.34272e+03   3.18407e-04
3.34572e+03   3.05442e-04
3.34872e+03   2.93300e-04
3.35172e+03   2.81909e-04
3.35472e+03   2.71209e-04
3.35772e+03   2.61142e-04
3.36072e+03   2.51659e-04
3.36372e+03   2.42714e-04
3.36672e+03   2.34265e-04
3.36972e+03   2.26277e-04
3.37272e+03   2.18714e-04
3.37572e+03   2.11547e-04
3.37872e+03   2.04748e-04
3.38172e+03   1.98291e-04
3.38472e+03   1.92153e-04
3.38772e+03   1.86312e-04
3.39072e+03   1.80750e-04
3.39372e+03   1.75448e-04
3.39672e+03   1.70390e-04
3.39972e+03   1.65561e-04
3.40272e+03   1.60946e-04
3.40572e+03   1.56534e-04
3.40872e+03   1.52311e-04
3.41172e+03   1.48267e-04
3.41472e+03   1.44391e-04
3.41772e+03   1.40675e-04
3.42072e+03   1.37109e-04
3.42372e+03   1.33684e-04
3.42672e+03   1.30394e-04
3.42972e+03   1.27232e-04
3.43272e+03   1.24189e-04
3.43572e+03   1.21262e-04
3.43872e+03   1.18442e-04
3.44172e+03   1.15725e-04
3.44472e+03   1.13107e-04
3.44772e+03   1.10581e-04
3.45072e+03   1.08145e-04
3.45372e+03   1.05792e-04
3.45672e+03   1.03520e-04
3.45972e+03   1.01325e-04
3.46272e+03   9.92024e-05
3.46572e+03   9.71501e-05
3.46872e+03   9.51645e-05
3.47172e+03   9.32427e-05
3.47472e+03   9.13818e-05
3.47772e+03   8.95794e-05
3.48072e+03   8.78328e-05
3.48372e+03   8.61398e-05
3.48672e+03   8.44980e-05
3.48972e+03   8.29055e-05
3.49272e+03   8.13601e-05
3.49572e+03   7.98600e-05
3.49872e+03   7.84033e-05
3.50172e+03   7.69885e-05
3.50472e+03   7.56137e-05
3.50772e+03   7.42775e-05
3.51072e+03   7.29785e-05
3.51372e+03   7.17151e-05
3.51672e+03   7.04861e-05
3.51972e+03   6.92903e-05
3.52272e+03   6.81263e-05
3.52572e+03   6.69930e-05
3.52872e+03   6.58894e-05
3.53172e+03   6.48143e-05
3.53472e+03   6.37668e-05
3.53772e+03   6.27459e-05
3.54072e+03   6.17507e-05
3.54372e+03   6.07802e-05
3.54672e+03   5.98338e-05
3.54972e+03   5.89105e-05
3.55272e+03   5.80096e-05
3.55572e+03   5.71303e-05
3.55872e+03   5.62720e-05
3.56172e+03   5.54339e-05
3.56472e+03   5.46155e-05
3.56772e+03   5.38160e-05
3.57072e+03   5.30349e-05
3.57372e+03   5.22716e-05
3.57672e+03   5.15256e-05
3.57972e+03   5.07963e-05
3.58272e+03   5.00833e-05
3.58572e+03   4.93859e-05
3.58872e+03   4.87038e-05
3.59172e+03   4.80365e-05
3.59472e+03   4.73836e-05
3.59772e+03   4.67446e-05
3.60072e+03   4.61191e-05
3.60372e+03   4.55068e-05
3.60672e+03   4.49073e-05
3.60972e+03   4.43201e-05
3.61272e+03   4.37450e-05
3.61572e+03   4.31817e-05
3.61872e+03   4.26297e-05
3.62172e+03   4.20888e-05
3.62472e+03   4.15587e-05
3.62772e+03   4.10391e-05
3.63072e+03   4.05297e-05
3.63372e+03   4.00302e-05
3.63672e+03   3.95404e-05
3.63972e+03   3.90600e-05
3.64272e+03   3.85887e-05
3.64572e+03   3.81264e-05
3.64872e+03   3.76728e-05
3.65172e+03   3.72277e-05
3.65472e+03   3.67908e-05
3.65772e+03   3.63620e-05
3.66072e+03   3.59410e-05
3.66372e+03   3.55277e-05
3.66672e+03   3.51218e-05
3.66972e+03   3.47232e-05
3.67272e+03   3.43318e-05
3.67572e+03   3.39472e-05
3.67872e+03   3.35694e-05
3.68172e+03   3.31983e-05
3.68472e+03   3.28335e-05
3.68772e+03   3.24751e-05
3.69072e+03   3.21228e-05
3.69372e+03   3.17765e-05
3.69672e+03   3.14361e-05
3.69972e+03   3.11014e-05
3.70272e+03   3.07723e-05
3.70572e+03   3.04486e-05
3.70872e+03   3.01304e-05
3.71172e+03   2.98173e-05
3.71472e+03   2.95093e-05
3.71772e+03   2.92064e-05
3.72072e+03   2.89083e-05
3.72372e+03   2.86150e-05
3.72672e+03   2.83264e-05
3.72972e+03   2.80423e-05
3.73272e+03   2.77627e-05
3.73572e+03   2.74875e-05
3.73872e+03   2.72166e-05
3.74172e+03   2.69499e-05
3.74472e+03   2.66873e-05
3.74772e+03   2.64287e-05
3.75072e+03   2.61740e-05
3.75372e+03   2.59232e-05
3.75672e+03   2.56762e-05
3.75972e+03   2.54328e-05
3.76272e+03   2.51931e-05
3.76572e+03   2.49569e-05
3.76872e+03   2.47243e-05
3.77172e+03   2.44950e-05
3.77472e+03   2.42690e-05
3.77772e+03   2.40464e-05
3.78072e+03   2.38269e-05
3.78372e+03   2.36106e-05
3.78672e+03   2.33974e-05
3.78972e+03   2.31872e-05
3.79272e+03   2.29799e-05
3.79572e+03   2.27756e-05
3.79872e+03   2.25741e-05
3.80172e+03   2.23755e-05
3.80472e+03   2.21795e-05
3.80772e+03   2.19863e-05
3.81072e+03   2.17957e-05
3.81372e+03   2.16077e-05
3.81672e+03   2.14223e-05
3.81972e+03   2.12393e-05
3.82272e+03   2.10588e-05
3.82422e+03   2.09695e-05